File: labs/ssp/XRD/unknown_0004.dat
# == pyFAI calibration ==
# Distance Sample to Detector: 0.158963 m
# PONI: 1.062e-01, 8.212e-02 m
# Rotations: -0.004467 -0.004617 0.000000 rad
#
# == Fit2d calibration ==
# Distance Sample-beamCenter: 158.967 mm
# Center: x=481.577, y=613.006 pix
# Tilt: 0.368 deg  TiltPlanRot: -45.941 deg
#
# Detector Pilatus CdTe 300k	 PixelSize= 1.720e-04, 1.720e-04 m
#    Detector has a mask: True
#    Detector has a dark current: False
#    detector has a flat field: False
#
# Wavelength: 7.10511e-11 m
# Mask applied: from detector
# Dark current applied: False
# Flat field applied: False
# Polarization factor: None
# Normalization factor: 1.0
# --> /home/diffmin/imagedata/221007_group1/unknown/unknown_0004.dat
#       2th_deg             I
  7.107765e-02    1.041618e+06
  1.512159e-01    1.031873e+06
  2.313541e-01    7.141177e+05
  3.114923e-01    3.362721e+05
  3.916305e-01    3.424675e+04
  4.717688e-01    3.379566e+04
  5.519070e-01    3.628118e+04
  6.320452e-01    2.218365e+04
  7.121834e-01    1.145654e+04
  7.923216e-01    6.581394e+03
  8.724598e-01    5.880030e+03
  9.525981e-01    4.471239e+03
  1.032736e+00    3.964958e+03
  1.112875e+00    3.576896e+03
  1.193013e+00    3.100606e+03
  1.273151e+00    2.502345e+03
  1.353289e+00    2.051895e+03
  1.433427e+00    2.274700e+03
  1.513566e+00    1.523230e+03
  1.593704e+00    1.109437e+03
  1.673842e+00    1.085841e+03
  1.753980e+00    6.605179e+02
  1.834118e+00    4.434468e+02
  1.914257e+00    4.048349e+02
  1.994395e+00    2.927400e+02
  2.074533e+00    1.854109e+02
  2.154671e+00    1.298000e+02
  2.234810e+00    1.154576e+02
  2.314948e+00    7.368594e+01
  2.395086e+00    6.015245e+01
  2.475224e+00    5.401451e+01
  2.555362e+00    5.172743e+01
  2.635501e+00    4.931403e+01
  2.715639e+00    4.455610e+01
  2.795777e+00    4.154561e+01
  2.875915e+00    3.829330e+01
  2.956054e+00    3.457032e+01
  3.036192e+00    3.299836e+01
  3.116330e+00    3.106223e+01
  3.196468e+00    3.023416e+01
  3.276606e+00    2.834352e+01
  3.356745e+00    2.790176e+01
  3.436883e+00    2.645677e+01
  3.517021e+00    2.426134e+01
  3.597159e+00    2.495114e+01
  3.677298e+00    2.359874e+01
  3.757436e+00    2.233060e+01
  3.837574e+00    2.233747e+01
  3.917712e+00    2.170805e+01
  3.997850e+00    1.980261e+01
  4.077989e+00    1.967701e+01
  4.158127e+00    2.003951e+01
  4.238265e+00    1.973116e+01
  4.318403e+00    1.897209e+01
  4.398542e+00    1.919055e+01
  4.478680e+00    1.849332e+01
  4.558818e+00    1.847379e+01
  4.638956e+00    1.844774e+01
  4.719094e+00    1.757042e+01
  4.799233e+00    1.788528e+01
  4.879371e+00    1.865907e+01
  4.959509e+00    1.802612e+01
  5.039647e+00    1.848871e+01
  5.119785e+00    1.851315e+01
  5.199924e+00    1.901285e+01
  5.280062e+00    1.784797e+01
  5.360200e+00    1.750881e+01
  5.440338e+00    1.712303e+01
  5.520477e+00    1.739327e+01
  5.600615e+00    1.680605e+01
  5.680753e+00    1.699680e+01
  5.760891e+00    1.670939e+01
  5.841029e+00    1.612539e+01
  5.921168e+00    1.612254e+01
  6.001306e+00    1.570064e+01
  6.081444e+00    1.565088e+01
  6.161582e+00    1.561564e+01
  6.241721e+00    1.568237e+01
  6.321859e+00    1.564619e+01
  6.401997e+00    1.528899e+01
  6.482135e+00    1.561666e+01
  6.562273e+00    1.504247e+01
  6.642412e+00    1.531469e+01
  6.722550e+00    1.528711e+01
  6.802688e+00    1.481850e+01
  6.882826e+00    1.481463e+01
  6.962965e+00    1.535546e+01
  7.043103e+00    1.462902e+01
  7.123241e+00    1.461531e+01
  7.203379e+00    1.479601e+01
  7.283517e+00    1.449810e+01
  7.363656e+00    1.482721e+01
  7.443794e+00    1.456900e+01
  7.523932e+00    1.432501e+01
  7.604070e+00    1.486165e+01
  7.684208e+00    1.451996e+01
  7.764347e+00    1.435082e+01
  7.844485e+00    1.382920e+01
  7.924623e+00    1.367864e+01
  8.004761e+00    1.406336e+01
  8.084900e+00    1.348662e+01
  8.165038e+00    1.323881e+01
  8.245176e+00    1.343045e+01
  8.325314e+00    1.357377e+01
  8.405452e+00    1.322719e+01
  8.485591e+00    1.334223e+01
  8.565729e+00    1.354833e+01
  8.645867e+00    1.327319e+01
  8.726005e+00    1.289985e+01
  8.806144e+00    1.304747e+01
  8.886282e+00    1.266971e+01
  8.966420e+00    1.228527e+01
  9.046558e+00    1.276002e+01
  9.126696e+00    1.241001e+01
  9.206835e+00    1.238720e+01
  9.286973e+00    1.259779e+01
  9.367111e+00    1.204252e+01
  9.447249e+00    1.175671e+01
  9.527388e+00    1.218871e+01
  9.607526e+00    1.179510e+01
  9.687664e+00    1.196532e+01
  9.767802e+00    1.188277e+01
  9.847940e+00    1.212124e+01
  9.928079e+00    1.216342e+01
  1.000822e+01    1.165740e+01
  1.008836e+01    1.156067e+01
  1.016849e+01    1.168639e+01
  1.024863e+01    1.129316e+01
  1.032877e+01    1.122163e+01
  1.040891e+01    1.109724e+01
  1.048905e+01    1.108133e+01
  1.056918e+01    1.089870e+01
  1.064932e+01    1.063816e+01
  1.072946e+01    1.052252e+01
  1.080960e+01    1.055551e+01
  1.088974e+01    1.062111e+01
  1.096988e+01    1.060541e+01
  1.105001e+01    1.031094e+01
  1.113015e+01    1.028689e+01
  1.121029e+01    1.011327e+01
  1.129043e+01    1.004666e+01
  1.137057e+01    1.023923e+01
  1.145070e+01    1.032938e+01
  1.153084e+01    9.947903e+00
  1.161098e+01    9.940905e+00
  1.169112e+01    9.834058e+00
  1.177126e+01    1.023575e+01
  1.185140e+01    9.806321e+00
  1.193153e+01    9.948832e+00
  1.201167e+01    9.802633e+00
  1.209181e+01    9.590896e+00
  1.217195e+01    9.424989e+00
  1.225209e+01    9.305617e+00
  1.233223e+01    9.646605e+00
  1.241236e+01    9.281964e+00
  1.249250e+01    9.035572e+00
  1.257264e+01    8.882618e+00
  1.265278e+01    8.716156e+00
  1.273292e+01    8.951937e+00
  1.281305e+01    8.498470e+00
  1.289319e+01    8.465646e+00
  1.297333e+01    7.982413e+00
  1.305347e+01    8.110087e+00
  1.313361e+01    8.102362e+00
  1.321375e+01    7.910205e+00
  1.329388e+01    8.163967e+00
  1.337402e+01    7.844620e+00
  1.345416e+01    7.924212e+00
  1.353430e+01    7.814626e+00
  1.361444e+01    7.712486e+00
  1.369457e+01    7.440178e+00
  1.377471e+01    7.280950e+00
  1.385485e+01    7.317446e+00
  1.393499e+01    7.327229e+00
  1.401513e+01    7.254400e+00
  1.409527e+01    7.047462e+00
  1.417540e+01    7.390322e+00
  1.425554e+01    6.984782e+00
  1.433568e+01    6.831276e+00
  1.441582e+01    6.944860e+00
  1.449596e+01    6.642238e+00
  1.457610e+01    6.806135e+00
  1.465623e+01    6.960920e+00
  1.473637e+01    6.761346e+00
  1.481651e+01    6.539490e+00
  1.489665e+01    6.382911e+00
  1.497679e+01    6.234364e+00
  1.505692e+01    6.510313e+00
  1.513706e+01    6.379575e+00
  1.521720e+01    6.213101e+00
  1.529734e+01    6.464311e+00
  1.537748e+01    6.183374e+00
  1.545762e+01    6.417609e+00
  1.553775e+01    6.175840e+00
  1.561789e+01    6.097050e+00
  1.569803e+01    6.060144e+00
  1.577817e+01    5.927651e+00
  1.585831e+01    5.990373e+00
  1.593845e+01    6.069815e+00
  1.601858e+01    5.949788e+00
  1.609872e+01    6.129246e+00
  1.617886e+01    5.972078e+00
  1.625900e+01    6.175425e+00
  1.633914e+01    6.079274e+00
  1.641927e+01    5.913502e+00
  1.649941e+01    6.036787e+00
  1.657955e+01    5.753296e+00
  1.665969e+01    5.629761e+00
  1.673983e+01    5.806686e+00
  1.681997e+01    5.688348e+00
  1.690010e+01    5.575706e+00
  1.698024e+01    5.731500e+00
  1.706038e+01    5.803662e+00
  1.714052e+01    5.516996e+00
  1.722066e+01    5.755926e+00
  1.730079e+01    5.686423e+00
  1.738093e+01    5.751074e+00
  1.746107e+01    5.720704e+00
  1.754121e+01    5.847596e+00
  1.762135e+01    5.647767e+00
  1.770149e+01    5.591398e+00
  1.778162e+01    5.587895e+00
  1.786176e+01    5.566068e+00
  1.794190e+01    5.532471e+00
  1.802204e+01    5.214032e+00
  1.810218e+01    5.439422e+00
  1.818232e+01    5.524940e+00
  1.826245e+01    5.458726e+00
  1.834259e+01    5.202446e+00
  1.842273e+01    5.366551e+00
  1.850287e+01    5.330967e+00
  1.858301e+01    5.337457e+00
  1.866314e+01    5.320128e+00
  1.874328e+01    5.168260e+00
  1.882342e+01    5.063673e+00
  1.890356e+01    5.197990e+00
  1.898370e+01    5.329371e+00
  1.906384e+01    5.248239e+00
  1.914397e+01    5.220998e+00
  1.922411e+01    5.177772e+00
  1.930425e+01    5.286080e+00
  1.938439e+01    5.250857e+00
  1.946453e+01    5.247295e+00
  1.954466e+01    5.336832e+00
  1.962480e+01    5.549819e+00
  1.970494e+01    5.407100e+00
  1.978508e+01    5.311014e+00
  1.986522e+01    5.607806e+00
  1.994536e+01    5.781210e+00
  2.002549e+01    6.123946e+00
  2.010563e+01    7.756677e+00
  2.018577e+01    1.226788e+01
  2.026591e+01    1.515177e+01
  2.034605e+01    1.567326e+01
  2.042619e+01    1.493837e+01
  2.050632e+01    1.113484e+01
  2.058646e+01    8.156295e+00
  2.066660e+01    6.068224e+00
  2.074674e+01    5.362953e+00
  2.082688e+01    5.287068e+00
  2.090701e+01    5.110081e+00
  2.098715e+01    4.912300e+00
  2.106729e+01    4.797116e+00
  2.114743e+01    4.918948e+00
  2.122757e+01    4.919557e+00
  2.130771e+01    4.940571e+00
  2.138784e+01    4.688243e+00
  2.146798e+01    4.709012e+00
  2.154812e+01    4.701739e+00
  2.162826e+01    4.615175e+00
  2.170840e+01    4.679764e+00
  2.178854e+01    4.629272e+00
  2.186867e+01    4.725353e+00
  2.194881e+01    4.509332e+00
  2.202895e+01    4.438316e+00
  2.210909e+01    4.601773e+00
  2.218923e+01    4.656575e+00
  2.226936e+01    4.584337e+00
  2.234950e+01    4.516468e+00
  2.242964e+01    4.381971e+00
  2.250978e+01    4.667110e+00
  2.258992e+01    4.514159e+00
  2.267006e+01    4.436546e+00
  2.275019e+01    4.509527e+00
  2.283033e+01    4.392290e+00
  2.291047e+01    4.459427e+00
  2.299061e+01    4.553907e+00
  2.307075e+01    4.557758e+00
  2.315088e+01    4.241288e+00
  2.323102e+01    4.442576e+00
  2.331116e+01    4.330419e+00
  2.339130e+01    4.401743e+00
  2.347144e+01    4.286517e+00
  2.355158e+01    4.251263e+00
  2.363171e+01    4.330047e+00
  2.371185e+01    4.434017e+00
  2.379199e+01    4.082139e+00
  2.387213e+01    4.225075e+00
  2.395227e+01    4.401200e+00
  2.403241e+01    4.346273e+00
  2.411254e+01    4.223126e+00
  2.419268e+01    4.194599e+00
  2.427282e+01    4.159707e+00
  2.435296e+01    4.202838e+00
  2.443310e+01    4.156513e+00
  2.451323e+01    4.142654e+00
  2.459337e+01    4.194759e+00
  2.467351e+01    4.260005e+00
  2.475365e+01    4.161268e+00
  2.483379e+01    4.186834e+00
  2.491393e+01    4.107641e+00
  2.499406e+01    4.108355e+00
  2.507420e+01    4.199251e+00
  2.515434e+01    4.102584e+00
  2.523448e+01    4.189956e+00
  2.531462e+01    4.131366e+00
  2.539475e+01    4.106747e+00
  2.547489e+01    4.275519e+00
  2.555503e+01    4.146061e+00
  2.563517e+01    4.044353e+00
  2.571531e+01    4.001655e+00
  2.579545e+01    4.106944e+00
  2.587558e+01    4.045629e+00
  2.595572e+01    3.967690e+00
  2.603586e+01    3.952269e+00
  2.611600e+01    4.073544e+00
  2.619614e+01    4.015640e+00
  2.627628e+01    3.884291e+00
  2.635641e+01    4.009946e+00
  2.643655e+01    3.931465e+00
  2.651669e+01    3.953352e+00
  2.659683e+01    3.991244e+00
  2.667697e+01    4.021745e+00
  2.675710e+01    3.868722e+00
  2.683724e+01    3.874735e+00
  2.691738e+01    3.847240e+00
  2.699752e+01    3.858500e+00
  2.707766e+01    4.062563e+00
  2.715780e+01    3.995626e+00
  2.723793e+01    3.935219e+00
  2.731807e+01    3.915636e+00
  2.739821e+01    3.967507e+00
  2.747835e+01    3.906969e+00
  2.755849e+01    7.541550e+01
  2.763863e+01    3.947762e+00
  2.771876e+01    3.930103e+00
  2.779890e+01    4.080355e+00
  2.787904e+01    3.889413e+00
  2.795918e+01    3.936999e+00
  2.803932e+01    3.867334e+00
  2.811945e+01    3.872009e+00
  2.819959e+01    4.120094e+00
  2.827973e+01    3.817173e+00
  2.835987e+01    3.924201e+00
  2.844001e+01    4.022526e+00
  2.852015e+01    3.925338e+00
  2.860028e+01    3.984722e+00
  2.868042e+01    4.428030e+00
  2.876056e+01    4.917904e+00
  2.884070e+01    5.547267e+00
  2.892084e+01    5.414433e+00
  2.900097e+01    5.443553e+00
  2.908111e+01    4.671950e+00
  2.916125e+01    4.463877e+00
  2.924139e+01    3.897827e+00
  2.932153e+01    3.760984e+00
  2.940167e+01    3.919362e+00
  2.948180e+01    3.604657e+00
  2.956194e+01    3.756942e+00
  2.964208e+01    3.860499e+00
  2.972222e+01    3.757868e+00
  2.980236e+01    3.717320e+00
  2.988250e+01    3.686867e+00
  2.996263e+01    3.818641e+00
  3.004277e+01    3.609271e+00
  3.012291e+01    3.573234e+00
  3.020305e+01    3.658937e+00
  3.028319e+01    3.602589e+00
  3.036332e+01    3.722176e+00
  3.044346e+01    3.654450e+00
  3.052360e+01    3.713396e+00
  3.060374e+01    3.554136e+00
  3.068388e+01    3.734887e+00
  3.076402e+01    3.646333e+00
  3.084415e+01    3.649604e+00
  3.092429e+01    3.480946e+00
  3.100443e+01    3.614954e+00
  3.108457e+01    3.657617e+00
  3.116471e+01    3.704154e+00
  3.124484e+01    3.541237e+00
  3.132498e+01    3.604782e+00
  3.140512e+01    3.481542e+00
  3.148526e+01    3.578367e+00
  3.156540e+01    3.466835e+00
  3.164554e+01    3.642784e+00
  3.172567e+01    3.567565e+00
  3.180581e+01    3.572790e+00
  3.188595e+01    3.393234e+00
  3.196609e+01    3.572741e+00
  3.204623e+01    3.394568e+00
  3.212637e+01    3.549521e+00
  3.220650e+01    3.491723e+00
  3.228664e+01    3.450774e+00
  3.236678e+01    3.656003e+00
  3.244692e+01    3.545518e+00
  3.252706e+01    3.495566e+00
  3.260719e+01    3.453621e+00
  3.268733e+01    3.437689e+00
  3.276747e+01    3.470951e+00
  3.284761e+01    3.481020e+00
  3.292775e+01    3.526139e+00
  3.300789e+01    3.484702e+00
  3.308802e+01    3.417283e+00
  3.316816e+01    3.324708e+00
  3.324830e+01    3.419088e+00
  3.332844e+01    3.362099e+00
  3.340858e+01    3.457084e+00
  3.348872e+01    3.253582e+00
  3.356885e+01    3.438549e+00
  3.364899e+01    3.572333e+00
  3.372913e+01    3.448130e+00
  3.380927e+01    3.403590e+00
  3.388941e+01    3.440457e+00
  3.396954e+01    3.468273e+00
  3.404968e+01    3.203155e+00
  3.412982e+01    3.436485e+00
  3.420996e+01    3.339641e+00
  3.429010e+01    3.227033e+00
  3.437024e+01    3.436143e+00
  3.445037e+01    3.347177e+00
  3.453051e+01    3.091364e+00
  3.461065e+01    3.162069e+00
  3.469079e+01    3.152313e+00
  3.477093e+01    3.246194e+00
  3.485106e+01    3.216917e+00
  3.493120e+01    3.140965e+00
  3.501134e+01    3.341292e+00
  3.509148e+01    3.230606e+00
  3.517162e+01    3.459023e+00
  3.525176e+01    3.378402e+00
  3.533189e+01    3.923620e+00
  3.541203e+01    4.635763e+00
  3.549217e+01    5.454581e+00
  3.557231e+01    5.477500e+00
  3.565245e+01    5.863768e+00
  3.573259e+01    4.829502e+00
  3.581272e+01    4.038034e+00
  3.589286e+01    3.811980e+00
  3.597300e+01    3.325766e+00
  3.605314e+01    3.206429e+00
  3.613328e+01    3.101862e+00
  3.621341e+01    2.964109e+00
  3.629355e+01    2.975969e+00
  3.637369e+01    2.972727e+00
  3.645383e+01    3.123076e+00
  3.653397e+01    2.932449e+00
  3.661411e+01    2.991189e+00
  3.669424e+01    2.843679e+00
  3.677438e+01    2.913934e+00
  3.685452e+01    2.745753e+00
  3.693466e+01    2.998811e+00
  3.701480e+01    2.867741e+00
  3.709494e+01    2.930777e+00
  3.717507e+01    2.846910e+00
  3.725521e+01    2.743516e+00
  3.733535e+01    2.867503e+00
  3.741549e+01    2.560286e+00
  3.749563e+01    2.870327e+00
  3.757576e+01    2.553029e+00
  3.765590e+01    2.699852e+00
  3.773604e+01    3.152581e+00
  3.781618e+01    2.767017e+00
  3.789632e+01    2.889176e+00
  3.797646e+01    2.952752e+00
  3.805659e+01    2.789861e+00
  3.813673e+01    2.869045e+00
  3.821687e+01    2.722275e+00
  3.829701e+01    2.663672e+00
  3.837715e+01    2.757850e+00
  3.845728e+01    2.485077e+00
  3.853742e+01    2.774213e+00
  3.861756e+01    2.271699e+00
  3.869770e+01    2.690307e+00
  3.877784e+01    2.846779e+00
  3.885798e+01    2.971413e+00
  3.893811e+01    2.538494e+00
  3.901825e+01    2.608824e+00
  3.909839e+01    2.546649e+00
  3.917853e+01    2.500966e+00
  3.925867e+01    2.553475e+00
  3.933881e+01    2.345072e+00
  3.941894e+01    2.711163e+00
  3.949908e+01    2.880271e+00
  3.957922e+01    2.510827e+00
  3.965936e+01    3.105365e+00
  3.973950e+01    3.752189e+00
  3.981963e+01    2.267814e+00
  3.989977e+01    2.616512e+00
  3.997991e+01    2.350541e+00
  4.006005e+01    2.482181e+00